Wavelength (nm)	N-1, 2321-07-5, Fluorescein, EtOH-base.ems
500.00	0.0038861
500.50	0.0044031
501.00	0.0048108
501.50	0.0055874
502.00	0.0059546
502.50	0.0066824
503.00	0.0071528
503.50	0.0082280
504.00	0.0086133
504.50	0.0097056
505.00	0.010321
505.50	0.012085
506.00	0.012417
506.50	0.014179
507.00	0.015442
507.50	0.017696
508.00	0.018896
508.50	0.020817
509.00	0.023665
509.50	0.026277
510.00	0.028262
510.50	0.031835
511.00	0.035147
511.50	0.039445
512.00	0.042714
512.50	0.047305
513.00	0.052068
513.50	0.058605
514.00	0.063405
514.50	0.070346
515.00	0.076370
515.50	0.087308
516.00	0.093447
516.50	0.10387
517.00	0.11171
517.50	0.12593
518.00	0.13402
518.50	0.14841
519.00	0.15957
519.50	0.17790
520.00	0.18810
520.50	0.20761
521.00	0.22146
521.50	0.24526
522.00	0.25931
522.50	0.28385
523.00	0.30230
523.50	0.33075
524.00	0.34871
524.50	0.37321
525.00	0.39998
525.50	0.43039
526.00	0.45117
526.50	0.48327
527.00	0.51117
527.50	0.54424
528.00	0.56374
528.50	0.59880
529.00	0.62469
529.50	0.65895
530.00	0.68088
530.50	0.71382
531.00	0.73632
531.50	0.76991
532.00	0.78749
532.50	0.81301
533.00	0.83405
533.50	0.86227
534.00	0.87194
534.50	0.89442
535.00	0.91008
535.50	0.92877
536.00	0.93908
536.50	0.95437
537.00	0.96298
537.50	0.97555
538.00	0.98082
538.50	0.98952
539.00	0.99224
539.50	0.99713
540.00	1.0000
540.50	0.99963
541.00	0.99889
541.50	0.99622
542.00	0.99658
542.50	0.98937
543.00	0.98592
543.50	0.97543
544.00	0.96898
544.50	0.96071
545.00	0.95146
545.50	0.93966
546.00	0.93234
546.50	0.91593
547.00	0.90896
547.50	0.89105
548.00	0.88527
548.50	0.86274
549.00	0.85675
549.50	0.83287
550.00	0.82794
550.50	0.80751
551.00	0.79465
551.50	0.77550
552.00	0.76362
552.50	0.74708
553.00	0.73294
553.50	0.71201
554.00	0.70263
554.50	0.68605
555.00	0.67010
555.50	0.65307
556.00	0.64434
556.50	0.62859
557.00	0.61517
557.50	0.59762
558.00	0.59073
558.50	0.57831
559.00	0.56690
559.50	0.55229
560.00	0.54255
560.50	0.52997
561.00	0.51967
561.50	0.50718
562.00	0.50038
562.50	0.48922
563.00	0.47833
563.50	0.46599
564.00	0.45952
564.50	0.45029
565.00	0.44110
565.50	0.43102
566.00	0.42612
566.50	0.41788
567.00	0.41283
567.50	0.40234
568.00	0.39780
568.50	0.39120
569.00	0.38571
569.50	0.37905
570.00	0.37356
570.50	0.36720
571.00	0.36464
571.50	0.35724
572.00	0.35430
572.50	0.35052
573.00	0.34717
573.50	0.33970
574.00	0.33664
574.50	0.33388
575.00	0.33219
575.50	0.32795
576.00	0.32288
576.50	0.32051
577.00	0.31777
577.50	0.31389
578.00	0.31126
578.50	0.30907
579.00	0.30568
579.50	0.30240
580.00	0.30243
580.50	0.29833
581.00	0.29538
581.50	0.29321
582.00	0.29093
582.50	0.28856
583.00	0.28525
583.50	0.28305
584.00	0.28164
584.50	0.27932
585.00	0.27683
585.50	0.27313
586.00	0.27102
586.50	0.26718
587.00	0.26372
587.50	0.25999
588.00	0.25848
588.50	0.25560
589.00	0.25185
589.50	0.24883
590.00	0.24644
590.50	0.24183
591.00	0.23865
591.50	0.23580
592.00	0.23281
592.50	0.22985
593.00	0.22666
593.50	0.22163
594.00	0.21949
594.50	0.21440
595.00	0.21310
595.50	0.20838
596.00	0.20640
596.50	0.20164
597.00	0.19870
597.50	0.19454
598.00	0.19206
598.50	0.18827
599.00	0.18540
599.50	0.17906
600.00	0.17693
600.50	0.17415
601.00	0.17059
601.50	0.16670
602.00	0.16277
602.50	0.15993
603.00	0.15557
603.50	0.15326
604.00	0.15001
604.50	0.14721
605.00	0.14412
605.50	0.14033
606.00	0.13860
606.50	0.13618
607.00	0.13383
607.50	0.12999
608.00	0.12857
608.50	0.12521
609.00	0.12397
609.50	0.11832
610.00	0.11816
610.50	0.11462
611.00	0.11268
611.50	0.10899
612.00	0.10805
612.50	0.10483
613.00	0.10282
613.50	0.10079
614.00	0.098868
614.50	0.096717
615.00	0.094858
615.50	0.092806
616.00	0.091424
616.50	0.089556
617.00	0.086897
617.50	0.085170
618.00	0.084545
618.50	0.081856
619.00	0.080363
619.50	0.078598
620.00	0.078148
620.50	0.075768
621.00	0.075367
621.50	0.073441
622.00	0.072971
622.50	0.071160
623.00	0.069262
623.50	0.068087
624.00	0.066971
624.50	0.065293
625.00	0.063872
625.50	0.062917
626.00	0.061596
626.50	0.060340
627.00	0.059959
627.50	0.057477
628.00	0.057186
628.50	0.057001
629.00	0.056258
629.50	0.055075
630.00	0.054590
630.50	0.053762
631.00	0.052661
631.50	0.051326
632.00	0.051847
632.50	0.051127
633.00	0.050527
633.50	0.048815
634.00	0.048687
634.50	0.047868
635.00	0.047198
635.50	0.046541
636.00	0.045157
636.50	0.044899
637.00	0.044470
637.50	0.043403
638.00	0.043340
638.50	0.042234
639.00	0.041648
639.50	0.041419
640.00	0.041174
640.50	0.040535
641.00	0.039446
641.50	0.039710
642.00	0.039141
642.50	0.038170
643.00	0.037615
643.50	0.037283
644.00	0.036459
644.50	0.036151
645.00	0.035798
645.50	0.034338
646.00	0.035179
646.50	0.034188
647.00	0.033698
647.50	0.033000
648.00	0.033297
648.50	0.032076
649.00	0.031417
649.50	0.029755
650.00	0.030625
650.50	0.029265
651.00	0.029668
651.50	0.029044
652.00	0.028480
652.50	0.028117
653.00	0.028147
653.50	0.027258
654.00	0.026977
654.50	0.026135
655.00	0.025886
655.50	0.025600
656.00	0.025177
656.50	0.024571
657.00	0.024503
657.50	0.023711
658.00	0.023099
658.50	0.022690
659.00	0.023091
659.50	0.022731
660.00	0.021936
660.50	0.021319
661.00	0.020876
661.50	0.021103
662.00	0.020159
662.50	0.019678
663.00	0.019135
663.50	0.018716
664.00	0.018844
664.50	0.018058
665.00	0.017735
665.50	0.017853
666.00	0.017461
666.50	0.017111
667.00	0.016774
667.50	0.016225
668.00	0.015883
668.50	0.015811
669.00	0.015909
669.50	0.015023
670.00	0.015129
670.50	0.014879
671.00	0.014243
671.50	0.013903
672.00	0.013779
672.50	0.013489
673.00	0.013906
673.50	0.012889
674.00	0.012578
674.50	0.012025
675.00	0.012019
675.50	0.011698
676.00	0.011410
676.50	0.011580
677.00	0.011298
677.50	0.011464
678.00	0.010769
678.50	0.010877
679.00	0.010432
679.50	0.010420
680.00	0.010161
680.50	0.0098849
681.00	0.0097329
681.50	0.0087779
682.00	0.0092748
682.50	0.0089136
683.00	0.0088644
683.50	0.0086483
684.00	0.0085998
684.50	0.0081017
685.00	0.0077278
685.50	0.0078288
686.00	0.0081184
686.50	0.0074913
687.00	0.0076817
687.50	0.0068728
688.00	0.0070561
688.50	0.0069459
689.00	0.0069979
689.50	0.0067421
690.00	0.0066128
690.50	0.0064617
691.00	0.0069721
691.50	0.0064953
692.00	0.0063481
692.50	0.0058323
693.00	0.0058645
693.50	0.0056714
694.00	0.0056596
694.50	0.0054856
695.00	0.0052947
695.50	0.0053833
696.00	0.0051575
696.50	0.0053039
697.00	0.0051473
697.50	0.0048053
698.00	0.0047022
698.50	0.0048227
699.00	0.0048335
699.50	0.0045144
700.00	0.0045532
