Wavelength (nm)	N01 abs e
219.75	29439
220.00	29367
220.25	29446
220.50	29278
220.75	29248
221.00	29282
221.25	29139
221.50	28913
221.75	28622
222.00	28896
222.25	28839
222.50	28722
222.75	28947
223.00	28615
223.25	28605
223.50	28450
223.75	28800
224.00	28698
224.25	28459
224.50	28371
224.75	28281
225.00	28338
225.25	28537
225.50	28623
225.75	28599
226.00	28675
226.25	28728
226.50	28697
226.75	28884
227.00	29031
227.25	29084
227.50	29143
227.75	29170
228.00	29236
228.25	29408
228.50	29772
228.75	29848
229.00	29942
229.25	30031
229.50	30230
229.75	30458
230.00	30713
230.25	30775
230.50	30919
230.75	31077
231.00	31333
231.25	31209
231.50	31686
231.75	31872
232.00	32141
232.25	32277
232.50	32549
232.75	32767
233.00	32952
233.25	33393
233.50	33731
233.75	34001
234.00	34088
234.25	34449
234.50	34883
234.75	35284
235.00	35598
235.25	36096
235.50	36822
235.75	37091
236.00	37731
236.25	38104
236.50	38503
236.75	38965
237.00	39306
237.25	39734
237.50	40020
237.75	40247
238.00	40391
238.25	40806
238.50	40852
238.75	41123
239.00	41182
239.25	41621
239.50	41561
239.75	41752
240.00	41549
240.25	41594
240.50	41665
240.75	41556
241.00	41603
241.25	41444
241.50	41325
241.75	41082
242.00	41048
242.25	40717
242.50	40575
242.75	40189
243.00	39981
243.25	39827
243.50	39485
243.75	39117
244.00	38703
244.25	38290
244.50	37882
244.75	37226
245.00	36715
245.25	36297
245.50	35684
245.75	35148
246.00	34397
246.25	33674
246.50	32901
246.75	32317
247.00	31425
247.25	30720
247.50	29843
247.75	29300
248.00	28483
248.25	27497
248.50	26682
248.75	26088
249.00	25294
249.25	24472
249.50	23757
249.75	23205
250.00	22479
250.25	21987
250.50	21316
250.75	20803
251.00	20342
251.25	19837
251.50	19208
251.75	18926
252.00	18535
252.25	18201
252.50	17841
252.75	17484
253.00	17157
253.25	16939
253.50	16786
253.75	16513
254.00	16317
254.25	16047
254.50	15791
254.75	15746
255.00	15653
255.25	15589
255.50	15457
255.75	15472
256.00	15286
256.25	15120
256.50	15129
256.75	15049
257.00	14966
257.25	14936
257.50	14819
257.75	14776
258.00	14760
258.25	14632
258.50	14698
258.75	14673
259.00	14656
259.25	14591
259.50	14574
259.75	14560
260.00	14519
260.25	14395
260.50	14387
260.75	14359
261.00	14283
261.25	14309
261.50	14228
261.75	14336
262.00	14290
262.25	14220
262.50	14189
262.75	14134
263.00	14077
263.25	13989
263.50	13860
263.75	13868
264.00	13843
264.25	13726
264.50	13574
264.75	13613
265.00	13471
265.25	13345
265.50	13250
265.75	13101
266.00	13077
266.25	13018
266.50	12898
266.75	12857
267.00	12636
267.25	12701
267.50	12517
267.75	12394
268.00	12435
268.25	12322
268.50	12164
268.75	12161
269.00	12057
269.25	12044
269.50	11918
269.75	11831
270.00	11785
270.25	11618
270.50	11489
270.75	11447
271.00	11483
271.25	11335
271.50	11329
271.75	11248
272.00	11187
272.25	11162
272.50	11134
272.75	11133
273.00	10979
273.25	10995
273.50	11010
273.75	10920
274.00	10849
274.25	10794
274.50	10894
274.75	10746
275.00	10714
275.25	10707
275.50	10577
275.75	10731
276.00	10641
276.25	10651
276.50	10595
276.75	10607
277.00	10599
277.25	10701
277.50	10732
277.75	10620
278.00	10738
278.25	10791
278.50	10692
278.75	10739
279.00	10820
279.25	10872
279.50	11022
279.75	10831
280.00	10846
280.25	10948
280.50	10867
280.75	10953
281.00	11134
281.25	11072
281.50	11106
281.75	11174
282.00	11167
282.25	11266
282.50	11242
282.75	11391
283.00	11473
283.25	11398
283.50	11527
283.75	11658
284.00	11742
284.25	11719
284.50	11661
284.75	11752
285.00	11887
285.25	11847
285.50	11909
285.75	12057
286.00	12126
286.25	12187
286.50	12173
286.75	12244
287.00	12298
287.25	12283
287.50	12400
287.75	12485
288.00	12638
288.25	12549
288.50	12658
288.75	12521
289.00	12684
289.25	12705
289.50	12724
289.75	12832
290.00	12736
290.25	12701
290.50	12759
290.75	12766
291.00	12827
291.25	12806
291.50	12873
291.75	12818
292.00	12787
292.25	12779
292.50	12854
292.75	12741
293.00	12658
293.25	12555
293.50	12481
293.75	12392
294.00	12456
294.25	12382
294.50	12130
294.75	12143
295.00	12206
295.25	12109
295.50	11940
295.75	12006
296.00	11880
296.25	11893
296.50	11759
296.75	11686
297.00	11607
297.25	11564
297.50	11453
297.75	11414
298.00	11398
298.25	11240
298.50	11039
298.75	10896
299.00	10756
299.25	10815
299.50	10767
299.75	10501
300.00	10458
300.25	10383
300.50	10245
300.75	10122
301.00	10043
301.25	9923.4
301.50	9896.7
301.75	9644.3
302.00	9608.5
302.25	9443.7
302.50	9550.5
302.75	9382.7
303.00	9124.2
303.25	9115.6
303.50	9005.2
303.75	9024.9
304.00	8798.1
304.25	8711.4
304.50	8598.0
304.75	8424.2
305.00	8375.8
305.25	8235.7
305.50	8160.6
305.75	8207.0
306.00	7959.0
306.25	7846.6
306.50	7851.7
306.75	7785.2
307.00	7606.2
307.25	7514.5
307.50	7479.2
307.75	7470.7
308.00	7308.4
308.25	7326.5
308.50	7267.6
308.75	7143.6
309.00	7044.8
309.25	7084.6
309.50	6962.2
309.75	7292.3
310.00	7043.3
310.25	6956.1
310.50	6887.6
310.75	6728.9
311.00	6545.9
311.25	6617.5
311.50	6706.2
311.75	6648.2
312.00	6931.4
312.25	7065.5
312.50	6778.7
312.75	7126.0
313.00	6470.3
313.25	6850.8
313.50	6630.1
313.75	6751.5
314.00	6251.1
314.25	6753.0
314.50	6593.8
314.75	6933.0
315.00	6807.0
315.25	6563.6
315.50	6992.9
315.75	6777.7
316.00	7134.5
316.25	7175.4
316.50	7204.1
316.75	7343.2
317.00	7098.8
317.25	7391.6
317.50	7434.9
317.75	7265.6
318.00	7235.8
318.25	7583.1
318.50	7851.2
318.75	7555.8
319.00	7635.0
319.25	7533.2
319.50	7878.4
319.75	8037.6
320.00	7858.7
320.25	8166.6
320.50	8298.2
320.75	8611.6
321.00	8605.6
321.25	8725.0
321.50	8414.6
321.75	8903.4
322.00	8549.2
322.25	8908.0
322.50	8953.3
322.75	8799.6
323.00	9085.9
323.25	8906.5
323.50	8769.9
323.75	9050.6
324.00	9023.9
324.25	8692.3
324.50	8660.0
324.75	8786.5
325.00	8767.4
325.25	8794.6
325.50	8641.9
325.75	8843.5
326.00	8673.6
326.25	8664.1
326.50	8548.6
326.75	8611.1
327.00	8558.7
327.25	8135.4
327.50	7974.6
327.75	8047.7
328.00	8142.0
328.25	8264.9
328.50	7871.3
328.75	7698.0
329.00	7445.0
329.25	7779.6
329.50	7540.2
329.75	7111.9
330.00	7257.5
330.25	7353.3
330.50	7235.8
330.75	6921.9
331.00	6675.4
331.25	6787.3
331.50	6976.8
331.75	6553.5
332.00	6586.7
332.25	6311.1
332.50	6517.2
332.75	6361.0
333.00	5859.0
333.25	5902.4
333.50	5684.1
333.75	5624.7
334.00	5955.3
334.25	5483.6
334.50	5338.9
334.75	5244.2
335.00	5343.0
335.25	5075.9
335.50	4924.2
335.75	5022.5
336.00	5227.6
336.25	4829.9
336.50	4906.0
336.75	4633.4
337.00	4830.4
337.25	4684.8
337.50	4296.2
337.75	4353.2
338.00	4096.7
338.25	4414.7
338.50	4149.1
338.75	3936.4
339.00	4117.3
339.25	4090.6
339.50	3662.8
339.75	3862.8
340.00	3580.1
340.25	3616.9
340.50	3492.4
340.75	3551.9
341.00	3487.4
341.25	3331.2
341.50	3555.9
341.75	3295.4
342.00	3191.6
342.25	3315.0
342.50	3050.5
342.75	3065.6
343.00	2970.3
343.25	2994.0
343.50	3064.6
343.75	2743.6
344.00	2869.0
344.25	2673.0
344.50	2607.5
344.75	2934.0
345.00	2721.9
345.25	2665.4
345.50	2530.9
345.75	2709.3
346.00	2429.6
346.25	2502.7
346.50	2432.1
346.75	2532.9
347.00	2538.9
347.25	2580.3
347.50	2462.3
347.75	2432.6
348.00	2427.6
348.25	2345.9
348.50	2383.7
348.75	2344.4
349.00	2258.2
349.25	2331.8
349.50	2301.1
349.75	2361.0
350.00	2332.8
350.25	2385.7
350.50	2240.6
350.75	1968.5
351.00	2206.8
351.25	2249.2
351.50	2233.0
351.75	2148.9
352.00	2058.2
352.25	1962.9
352.50	2099.5
352.75	2274.4
353.00	2190.2
353.25	2174.6
353.50	2187.2
353.75	2250.2
354.00	1998.2
354.25	1982.1
354.50	2210.4
354.75	1959.9
355.00	2104.5
355.25	2137.8
355.50	2047.1
355.75	1851.5
356.00	2163.5
356.25	2165.0
356.50	1974.0
356.75	1956.9
357.00	2035.5
357.25	2029.4
357.50	2055.6
357.75	2011.8
358.00	2135.8
358.25	1982.1
358.50	2138.3
358.75	1959.9
359.00	2003.2
359.25	2003.7
359.50	2004.2
359.75	2117.1
360.00	1955.9
360.25	1949.3
360.50	2111.1
360.75	2031.5
361.00	1831.9
361.25	1990.1
361.50	2005.3
361.75	1988.1
362.00	1912.5
362.25	2167.5
362.50	1905.5
362.75	1945.8
363.00	1992.1
363.25	1902.9
363.50	1800.6
363.75	1884.8
364.00	1963.4
364.25	1885.8
364.50	2000.7
364.75	2059.2
365.00	2018.9
365.25	1862.1
365.50	1988.6
365.75	2011.8
366.00	1908.0
366.25	2056.7
366.50	1824.8
366.75	1980.6
367.00	1909.5
367.25	1987.1
367.50	1827.9
367.75	1825.8
368.00	2088.9
368.25	2025.9
368.50	1897.9
368.75	1833.4
369.00	1958.9
369.25	1963.9
369.50	2051.6
369.75	1849.0
370.00	2072.3
370.25	1929.2
370.50	1977.0
370.75	1922.1
371.00	1824.8
371.25	2006.3
371.50	2032.0
371.75	2103.5
372.00	1889.3
372.25	2005.3
372.50	1969.0
372.75	2014.8
373.00	1990.1
373.25	1990.1
373.50	1989.6
373.75	1970.0
374.00	2032.0
374.25	1943.3
374.50	1843.0
374.75	1958.9
375.00	1896.9
375.25	2205.3
375.50	1848.5
375.75	1856.1
376.00	1806.2
376.25	1913.0
376.50	2149.4
376.75	2113.6
377.00	2022.9
377.25	1923.1
377.50	1952.8
377.75	1879.8
378.00	1794.1
378.25	1933.2
378.50	2022.9
378.75	1803.2
379.00	2096.5
379.25	2119.6
379.50	1953.3
379.75	1897.9
380.00	1988.1
380.25	1984.1
380.50	2010.8
380.75	1991.1
381.00	1943.8
381.25	1840.0
381.50	2008.3
381.75	1902.9
382.00	1804.2
382.25	1836.9
382.50	1750.2
382.75	1649.0
383.00	1869.7
383.25	1876.2
383.50	1883.8
383.75	1796.1
384.00	1821.8
384.25	1790.1
384.50	1743.7
384.75	1796.6
385.00	1740.7
385.25	1697.8
385.50	1620.7
385.75	1791.1
386.00	1817.3
386.25	1698.3
386.50	1756.8
386.75	1742.2
387.00	1580.9
387.25	1583.4
387.50	1614.7
387.75	1625.8
388.00	1626.8
388.25	1524.0
388.50	1586.0
388.75	1543.6
389.00	1645.9
389.25	1641.4
389.50	1597.5
389.75	1593.5
390.00	1619.7
390.25	1499.8
390.50	1567.8
390.75	1555.2
391.00	1526.5
391.25	1569.3
391.50	1703.9
391.75	1389.4
392.00	1462.0
392.25	1354.6
392.50	1531.0
392.75	1552.2
393.00	1387.9
393.25	1519.4
393.50	1411.6
393.75	1500.3
394.00	1504.3
394.25	1464.5
394.50	1391.4
394.75	1407.1
395.00	1538.1
395.25	1482.1
395.50	1629.3
395.75	1497.8
396.00	1436.3
396.25	1493.2
396.50	1417.1
396.75	1534.6
397.00	1515.9
397.25	1390.4
397.50	1514.9
397.75	1427.2
398.00	1387.9
398.25	1368.2
398.50	1386.4
398.75	1427.7
399.00	1310.3
399.25	1354.1
399.50	1446.9
399.75	1475.1
400.00	1392.4
400.25	1328.9
400.50	1413.6
400.75	1429.7
401.00	1481.6
401.25	1484.2
401.50	1329.4
401.75	1335.5
402.00	1504.3
402.25	1416.1
402.50	1536.1
402.75	1378.8
403.00	1332.5
403.25	1373.3
403.50	1304.7
403.75	1467.5
404.00	1381.4
404.25	1272.5
404.50	1258.4
404.75	1308.3
405.00	1335.0
405.25	1403.0
405.50	1367.7
405.75	1284.1
406.00	1338.5
406.25	1395.0
406.50	1558.2
406.75	1493.7
407.00	1444.3
407.25	1398.5
407.50	1393.9
407.75	1381.9
408.00	1495.2
408.25	1450.4
408.50	1356.2
408.75	1468.5
409.00	1587.5
409.25	1433.8
409.50	1429.7
409.75	1414.6
410.00	1516.4
410.25	1518.9
410.50	1520.9
410.75	1527.0
411.00	1525.5
411.25	1498.8
411.50	1620.7
411.75	1438.3
412.00	1546.1
412.25	1596.0
412.50	1586.5
412.75	1632.8
413.00	1592.0
413.25	1572.9
413.50	1450.4
413.75	1660.0
414.00	1602.6
414.25	1701.4
414.50	1656.0
414.75	1687.8
415.00	1697.8
415.25	1663.6
415.50	1668.6
415.75	1587.5
416.00	1746.7
416.25	1733.6
416.50	1831.9
416.75	1734.6
417.00	1779.0
417.25	1762.8
417.50	1887.3
417.75	1858.6
418.00	1860.1
418.25	1846.5
418.50	1875.2
418.75	1915.0
419.00	1891.4
419.25	1997.7
419.50	1946.3
419.75	2062.2
420.00	2015.8
420.25	2082.9
420.50	2170.0
420.75	2125.7
421.00	2137.3
421.25	2142.3
421.50	2167.5
421.75	2283.9
422.00	2268.8
422.25	2205.8
422.50	2337.4
422.75	2367.1
423.00	2503.7
423.25	2433.1
423.50	2504.7
423.75	2541.5
424.00	2553.6
424.25	2712.3
424.50	2598.4
424.75	2719.9
425.00	2744.6
425.25	2666.4
425.50	2751.6
425.75	2783.4
426.00	2863.0
426.25	2916.9
426.50	3005.1
426.75	2990.5
427.00	3094.8
427.25	3142.7
427.50	3225.8
427.75	3207.7
428.00	3332.2
428.25	3239.4
428.50	3417.8
428.75	3571.1
429.00	3567.5
429.25	3592.7
429.50	3657.7
429.75	3729.8
430.00	3747.4
430.25	3810.4
430.50	3931.4
430.75	3969.2
431.00	3948.0
431.25	3984.3
431.50	4046.3
431.75	4270.0
432.00	4144.6
432.25	4362.3
432.50	4440.4
432.75	4473.6
433.00	4530.6
433.25	4574.9
433.50	4697.4
433.75	4724.6
434.00	4783.1
434.25	4832.0
434.50	4889.4
434.75	4971.6
435.00	4901.5
435.25	5124.3
435.50	5137.9
435.75	5282.0
436.00	5387.3
436.25	5468.5
436.50	5552.6
436.75	5576.3
437.00	5644.8
437.25	5741.1
437.50	5845.9
437.75	5817.2
438.00	5935.6
438.25	6035.9
438.50	6045.0
438.75	6112.5
439.00	6162.9
439.25	6261.2
439.50	6339.3
439.75	6483.4
440.00	6493.5
440.25	6567.1
440.50	6706.7
440.75	6840.7
441.00	6745.0
441.25	6827.6
441.50	7013.1
441.75	6990.9
442.00	7029.2
442.25	7218.2
442.50	7165.3
442.75	7281.2
443.00	7303.4
443.25	7374.4
443.50	7561.9
443.75	7620.4
444.00	7842.6
444.25	7891.0
444.50	7969.1
444.75	8026.0
445.00	8098.1
445.25	8278.0
445.50	8307.3
445.75	8426.7
446.00	8619.7
446.25	8641.4
446.50	8744.2
446.75	8853.0
447.00	8846.0
447.25	9150.4
447.50	9397.8
447.75	9430.1
448.00	9540.4
448.25	9707.2
448.50	9959.2
448.75	10028
449.00	10119
449.25	10235
449.50	10321
449.75	10660
450.00	10752
450.25	10992
450.50	11052
450.75	11281
451.00	11489
451.25	11697
451.50	11850
451.75	11948
452.00	12279
452.25	12448
452.50	12495
452.75	12857
453.00	13010
453.25	13268
453.50	13523
453.75	13735
454.00	14063
454.25	14203
454.50	14362
454.75	14749
455.00	14763
455.25	14832
455.50	15209
455.75	15467
456.00	15805
456.25	15968
456.50	16270
456.75	16651
457.00	16745
457.25	17109
457.50	17451
457.75	17820
458.00	18002
458.25	18416
458.50	18690
458.75	19046
459.00	19290
459.25	19510
459.50	19845
459.75	20162
460.00	20620
460.25	20780
460.50	21080
460.75	21359
461.00	21797
461.25	22038
461.50	22299
461.75	22767
462.00	23058
462.25	23285
462.50	23643
462.75	23996
463.00	24255
463.25	24522
463.50	24752
463.75	25145
464.00	25315
464.25	25522
464.50	25780
464.75	26084
465.00	26383
465.25	26631
465.50	26850
465.75	26955
466.00	27384
466.25	27461
466.50	27795
466.75	27865
467.00	28212
467.25	28301
467.50	28571
467.75	28833
468.00	28957
468.25	29253
468.50	29407
468.75	29623
469.00	29758
469.25	29729
469.50	30146
469.75	30448
470.00	30507
470.25	30472
470.50	30760
470.75	30836
471.00	30982
471.25	31063
471.50	31286
471.75	31280
472.00	31632
472.25	31754
472.50	31997
472.75	32053
473.00	32304
473.25	32243
473.50	32502
473.75	32599
474.00	32887
474.25	32928
474.50	33089
474.75	33374
475.00	33475
475.25	33716
475.50	33847
475.75	34196
476.00	34343
476.25	34705
476.50	34867
476.75	35257
477.00	35515
477.25	35661
477.50	36021
477.75	36124
478.00	36580
478.25	36953
478.50	37264
478.75	37677
479.00	37984
479.25	38262
479.50	38452
479.75	38887
480.00	39483
480.25	39799
480.50	40077
480.75	40582
481.00	41152
481.25	41600
481.50	41920
481.75	42444
482.00	43171
482.25	43657
482.50	44128
482.75	44490
483.00	45156
483.25	45731
483.50	46293
483.75	46912
484.00	47562
484.25	48349
484.50	48930
484.75	49512
485.00	50359
485.25	51011
485.50	51819
485.75	52673
486.00	53118
486.25	53931
486.50	54685
486.75	55426
487.00	56284
487.25	57147
487.50	57950
487.75	58659
488.00	59669
488.25	60461
488.50	61395
488.75	62396
489.00	63132
489.25	63976
489.50	64808
489.75	65769
490.00	66467
490.25	67493
490.50	68648
490.75	69561
491.00	70281
491.25	71132
491.50	72132
491.75	72956
492.00	73904
492.25	74782
492.50	75552
492.75	76594
493.00	77472
493.25	78381
493.50	79017
493.75	79853
494.00	80788
494.25	81461
494.50	82265
494.75	83073
495.00	83398
495.25	83687
495.50	84642
495.75	85268
496.00	85813
496.25	86589
496.50	87062
496.75	87816
497.00	88497
497.25	88995
497.50	89468
497.75	89626
498.00	90066
498.25	90695
498.50	91110
498.75	91208
499.00	91831
499.25	91361
499.50	91706
499.75	91998
500.00	91990
500.25	92302
500.50	92045
500.75	92232
501.00	91924
501.25	91672
501.50	91023
501.75	90954
502.00	90506
502.25	90494
502.50	89927
502.75	89025
503.00	88542
503.25	88073
503.50	87260
503.75	86624
504.00	85638
504.25	84870
504.50	84057
504.75	83254
505.00	82537
505.25	81313
505.50	80293
505.75	79217
506.00	78289
506.25	76943
506.50	75919
506.75	74547
507.00	73631
507.25	72370
507.50	71199
507.75	69667
508.00	68531
508.25	66964
508.50	65794
508.75	64332
509.00	63047
509.25	61569
509.50	60226
509.75	58876
510.00	57474
510.25	56332
510.50	55056
510.75	53353
511.00	51995
511.25	50693
511.50	49394
511.75	47853
512.00	46459
512.25	45294
512.50	43908
512.75	42624
513.00	41435
513.25	40248
513.50	39091
513.75	37890
514.00	36698
514.25	35522
514.50	34328
514.75	33305
515.00	32301
515.25	31153
515.50	29769
515.75	28560
516.00	27297
516.25	26180
516.50	25227
516.75	24144
517.00	23429
517.25	22437
517.50	21709
517.75	20872
518.00	20131
518.25	19186
518.50	18652
518.75	18051
519.00	17258
519.25	16755
519.50	16071
519.75	15397
520.00	14820
520.25	14258
520.50	13636
520.75	13149
521.00	12649
521.25	12100
521.50	11742
521.75	11158
522.00	10728
522.25	10426
522.50	9904.8
522.75	9684.6
523.00	9081.3
523.25	8901.9
523.50	8475.1
523.75	8128.3
524.00	7829.5
524.25	7354.8
524.50	7092.7
524.75	6898.2
525.00	6596.3
525.25	6375.1
525.50	6075.7
525.75	5783.9
526.00	5529.4
526.25	5322.8
526.50	5087.0
526.75	4933.8
527.00	4739.7
527.25	4464.1
527.50	4235.8
527.75	4073.5
528.00	3909.7
528.25	3737.9
528.50	3602.8
528.75	3518.6
529.00	3296.4
529.25	3295.9
529.50	3093.3
529.75	2969.8
530.00	2746.6
530.25	2658.4
530.50	2526.8
530.75	2432.6
531.00	2278.4
531.25	2315.7
531.50	2218.9
531.75	2086.9
532.00	1795.1
532.25	1839.4
532.50	1812.2
532.75	1882.3
533.00	1601.1
533.25	1624.8
533.50	1536.1
533.75	1586.0
534.00	1425.2
534.25	1330.5
534.50	1346.1
534.75	1241.2
535.00	1360.2
535.25	1328.4
535.50	1201.4
535.75	1127.9
536.00	1138.9
536.25	1096.1
536.50	957.52
536.75	1054.8
537.00	892.01
537.25	871.34
537.50	907.13
537.75	856.73
538.00	970.62
538.25	925.27
538.50	891.50
538.75	752.91
539.00	834.05
539.25	753.92
539.50	704.53
539.75	681.35
540.00	694.45
540.25	637.51
540.50	576.53
540.75	616.85
541.00	645.07
541.25	742.83
541.50	835.56
541.75	613.32
542.00	658.17
542.25	592.66
542.50	484.81
542.75	506.98
543.00	432.40
543.25	495.90
543.50	564.94
543.75	623.90
544.00	538.23
544.25	549.31
544.50	522.60
544.75	383.01
545.00	423.33
545.25	411.73
545.50	370.41
545.75	371.42
546.00	481.78
546.25	370.41
546.50	297.34
546.75	438.95
547.00	504.46
547.25	470.70
547.50	314.97
547.75	408.21
548.00	402.16
548.25	322.53
548.50	425.34
548.75	349.24
549.00	433.40
549.25	388.55
549.50	350.76
549.75	424.84
550.00	453.56
550.25	542.26
550.50	383.51
550.75	386.03
551.00	158.24
551.25	298.34
551.50	281.71
551.75	478.76
552.00	332.11
552.25	403.67
552.50	576.02
552.75	344.71
553.00	355.29
553.25	306.41
553.50	403.67
553.75	463.64
554.00	278.19
554.25	292.30
554.50	326.57
554.75	376.96
555.00	290.78
555.25	313.97
555.50	397.62
555.75	338.66
556.00	361.34
556.25	197.05
556.50	256.51
556.75	169.83
557.00	392.08
557.25	334.12
557.50	289.27
557.75	302.38
558.00	365.87
558.25	537.22
558.50	399.14
558.75	203.10
559.00	168.32
559.25	368.90
559.50	206.62
559.75	296.33
560.00	355.79
560.25	286.25
560.50	257.52
560.75	371.42
561.00	259.54
561.25	343.20
561.50	379.98
561.75	367.89
562.00	261.05
562.25	257.02
562.50	337.65
562.75	140.10
563.00	246.94
563.25	240.89
563.50	379.48
563.75	312.96
564.00	346.22
564.25	271.63
564.50	331.60
564.75	237.87
565.00	149.17
565.25	327.07
565.50	215.19
565.75	348.74
566.00	392.08
566.25	310.94
566.50	304.89
566.75	262.56
567.00	302.88
567.25	292.30
567.50	336.64
567.75	185.46
568.00	294.82
568.25	221.74
568.50	108.35
568.75	207.13
569.00	212.67
569.25	355.29
569.50	230.81
569.75	248.96
570.00	67.530
570.25	227.29
570.50	157.24
570.75	232.32
571.00	103.82
571.25	193.52
571.50	241.90
571.75	105.83
572.00	277.18
572.25	86.177
572.50	279.70
572.75	154.72
573.00	204.10
573.25	202.09
573.50	153.20
573.75	265.59
574.00	106.84
574.25	29.230
574.50	197.55
574.75	187.98
575.00	246.44
575.25	117.42
575.50	212.67
575.75	48.380
576.00	276.67
576.25	205.62
576.50	169.83
576.75	219.73
577.00	119.44
577.25	264.58
577.50	189.49
577.75	255.51
578.00	134.05
578.25	145.14
578.50	133.05
578.75	224.26
579.00	193.52
579.25	126.49
579.50	180.92
579.75	26.710
580.00	158.24
580.25	173.87
580.50	124.48
580.75	299.86
581.00	167.82
581.25	332.11
581.50	176.89
581.75	212.67
582.00	131.03
582.25	94.744
582.50	200.58
582.75	135.56
583.00	146.65
583.25	130.02
583.50	252.48
583.75	219.73
584.00	127.50
584.25	215.69
584.50	145.14
584.75	256.51
585.00	167.31
585.25	165.30
585.50	156.23
585.75	110.37
586.00	224.26
586.25	156.73
586.50	210.65
586.75	192.51
587.00	258.03
587.25	268.61
587.50	232.83
587.75	187.47
588.00	137.58
588.25	184.45
588.50	144.13
588.75	212.67
589.00	171.85
589.25	172.35
589.50	157.24
589.75	207.13
590.00	215.69
590.25	139.60
590.50	182.94
590.75	82.145
591.00	234.84
591.25	168.32
591.50	107.34
591.75	299.86
592.00	137.58
592.25	192.01
592.50	216.70
592.75	364.36
593.00	181.43
593.25	170.34
593.50	139.09
593.75	136.07
594.00	189.99
594.25	-35.781
594.50	193.52
594.75	227.79
595.00	161.27
595.25	308.42
595.50	194.53
595.75	256.51
596.00	164.79
596.25	74.082
596.50	216.20
596.75	196.54
597.00	227.29
597.25	202.09
597.50	379.48
597.75	132.04
598.00	272.64
598.25	229.81
598.50	210.65
598.75	172.86
599.00	124.98
599.25	235.85
599.50	91.216
599.75	262.56
600.00	207.63
